Folder: plot_spectra/Data/2024-12-06_test_data_miniRaman

Note: README.md
# plot_spectra
loads and plots
Lightnovo ApS spectral files saved in .tsv format
Python class raman_spectrum automatically loads and normalizes the data
there is an option to plot raw data or normalized data.
An example shows how to plot raw spectral data of polystyrene and paracetamol,
as well as to plot their normalized data together. Original data files acquired with Lightnovo instrumentation (miniRaman) are included.

File: polystyrene.tsv
DeviceSN	10030
LaserWavelength_nm	785
Exposure_ms	250
GainMultiplier	1
LaserCurrent_mA	250
LaserPower_mW	125.926
RepetitionCount	10
Wavenumber [cm^-1]	Raman [%]
400	0.628839
408	0.681406
416	0.5820117
424	0.417947
432	0.348764
440	0.281705
448	0.223984
456	0.166698
464	0.126837
472	0.0890174
480	0.10559
488	0.0963057
496	0.112321
504	0.112247
512	0.12585
520	0.16092
528	0.208785
536	0.299856
544	0.328798
552	0.276852
560	0.263891
568	0.241319
576	0.192933
584	0.171114
592	0.163024
600	0.198252
608	0.320403
616	1.4473
624	1.4883
632	0.383465
640	0.120962
648	0.0446781
656	0.0346022
664	0.0114047
672	0.0311117
680	0.0141985
688	0.0220315
696	0.0833663
704	0.106154
712	0.0506215
720	0.0738566
728	0.218954
736	0.454956
744	0.663732
752	0.872509
760	0.956347
768	0.855422
776	0.837873
784	1.2382
792	1.81696
800	1.43654
808	0.798441
816	0.464424
824	0.336029
832	0.430011
840	0.534885
848	0.446252
856	0.384865
864	0.380154
872	0.348782
880	0.331869
888	0.337427
896	0.442094
904	0.49594
912	0.355237
920	0.264964
928	0.258413
936	0.281085
944	0.287597
952	0.325915
960	0.420439
968	0.498835
976	0.78242
984	1.65802
992	5.1597
1000	14.354
1008	3.28138
1016	1.47189
1024	2.92193
1032	3.78527
1040	1.52984
1048	0.869239
1056	0.770568
1064	0.852471
1072	0.868407
1080	0.794273
1088	0.773974
1096	0.720687
1104	0.504709
1112	0.355946
1120	0.274351
1128	0.246838
1136	0.337104
1144	0.759822
1152	1.78594
1160	1.24172
1168	1.10138
1176	2.08551
1184	2.47492
1192	2.5464
1200	2.49175
1208	1.5775
1216	0.940862
1224	0.687648
1232	0.519348
1240	0.454964
1248	0.43204
1256	0.38508
1264	0.365348
1272	0.368989
1280	0.370587
1288	0.448758
1296	0.567451
1304	0.611907
1312	0.713286
1320	0.855551
1328	0.902948
1336	0.727275
1344	0.53111
1352	0.457943
1360	0.463771
1368	0.419548
1376	0.327396
1384	0.217247
1392	0.157419
1400	0.137258
1408	0.130565
1416	0.110227
1424	0.159338
1432	0.383769
1440	0.735662
1448	1.01609
1456	0.595275
1464	0.235399
1472	0.133493
1480	0.117275
1488	0.140911
1496	0.133642
1504	0.0995635
1512	0.103575
1520	0.097804
1528	0.098117
1536	0.109943
1544	0.102654
1552	0.125812
1560	0.188642
1568	0.293586
1576	0.755228
1584	1.40177
1592	1.26086
1600	2.90466
1608	1.64455
1616	0.506154
1624	0.264416
1632	0.172308
1640	0.119764
1648	0.0887351
1656	0.0835109
1664	0.096369
1672	0.0852463
1680	0.0911754
1688	0.0938606
1696	0.0589841
1704	0.054235
1712	0.0678276
1720	0.0594513
1728	0.0628063
1736	0.0612263
1744	0.0651063
1752	0.0463528
1760	0.0538176
1768	0.0599372
1776	0.0542005
1784	0.044746
1792	0.0546071
1800	0.0712561
1808	0.0591403
1816	0.049395
1824	0.055307
1832	0.0435339
1840	0.0417721
1848	0.0615267
1856	0.047015
1864	0.0310329
1872	0.0597006
1880	0.0482481
1888	0.0367414
1896	0.03021
1904	0.0640168
1912	0.0505271
1920	0.0758726
1928	0.0752888
1936	0.0728641
1944	0.0553473
1952	0.0544951
1960	0.0520938
1968	0.0638577
1976	0.0493339
1984	0.0476884
1992	0.0443357
2000	0.0578905
2008	0.0516426
2016	0.0568883
2024	0.0679519
2032	0.069712
2040	0.0594478
2048	0.0523313
2056	0.0603978
2064	0.0681419
2072	0.0266719
2080	0.0603929
2088	0.0577406
2096	0.0520109
2104	0.0497674
2112	0.05091
2120	0.0697627
2128	0.0484635
2136	0.0786346
2144	0.0593735
2152	0.06151
2160	0.0413426
2168	0.0956333
2176	0.0389198
2184	0.063194
2192	0.0709364
2200	0.0773638
2208	0.0775296
2216	0.0897001
2224	0.0659536
2232	0.0747995
2240	0.0573281
2248	0.0854125
2256	0.0636411
2264	0.0616597
2272	0.0093393
2280	0.0773247
2288	0.0583528
2296	0.0656757
2304	0.0626144
2312	0.0926096
2320	0.0841303
2328	0.0891991
2336	0.071819
2344	0.0832749
2352	0.0905416
2360	0.05092787
2368	0.109296
2376	0.117884
2384	0.104601
2392	0.107518
2400	0.0765816
2408	0.11431
2416	0.0804926
2424	0.123106
2432	0.0674399
2440	0.101136
2448	0.0977472
2456	0.138221
2464	0.12025
2472	0.135968
2480	0.115817
2488	0.1237543
2496	0.129775
2504	0.101386
2512	0.180384
2520	0.111981
2528	0.205932
2536	0.0911988
2544	0.130472
2552	0.198021
2560	0.154867
2568	0.156987
2576	0.131817
2584	0.120895
2592	0.274765
2600	0.239778